Folder: research_scripts/parsers/parser_electrochem/data

Note: parsers/parser_electrochem/data/semilog_dark_10v.txt
Sept. 4, 2025   10:12:00
Tafel Plot
File: c:\users\19156\desktop\10_dark.txt
Data Source:  Experiment
Instrument Model:  CHI760F
Header: 
Note: 

Init E (V) = 0.5
Final E (V) = -0.5
Segment = 1
Hold Time at Ef (sec) = 0
Scan Rate (V/s) = 0.01
Quiet Time (sec) = 2

Potential/V, Current/A, log(i/A)

0.500, 1.970e-5, -4.706e+0
0.499, 1.950e-5, -4.710e+0
0.498, 1.930e-5, -4.714e+0
0.497, 1.910e-5, -4.719e+0
0.496, 1.890e-5, -4.724e+0
0.495, 1.870e-5, -4.728e+0
0.494, 1.850e-5, -4.733e+0
0.493, 1.830e-5, -4.738e+0
0.492, 1.800e-5, -4.745e+0
0.491, 1.780e-5, -4.750e+0
0.490, 1.760e-5, -4.754e+0
0.489, 1.740e-5, -4.759e+0
0.488, 1.720e-5, -4.764e+0
0.487, 1.700e-5, -4.770e+0
0.486, 1.680e-5, -4.775e+0
0.485, 1.660e-5, -4.780e+0
0.484, 1.640e-5, -4.785e+0
0.483, 1.620e-5, -4.790e+0
0.482, 1.610e-5, -4.793e+0
0.481, 1.590e-5, -4.799e+0
0.480, 1.570e-5, -4.804e+0
0.479, 1.560e-5, -4.807e+0
0.478, 1.540e-5, -4.812e+0
0.477, 1.520e-5, -4.818e+0
0.476, 1.510e-5, -4.821e+0
0.475, 1.490e-5, -4.827e+0
0.474, 1.480e-5, -4.830e+0
0.473, 1.460e-5, -4.836e+0
0.472, 1.450e-5, -4.839e+0
0.471, 1.430e-5, -4.845e+0
0.470, 1.420e-5, -4.848e+0
0.469, 1.410e-5, -4.851e+0
0.468, 1.390e-5, -4.857e+0
0.467, 1.380e-5, -4.860e+0
0.466, 1.360e-5, -4.866e+0
0.465, 1.350e-5, -4.870e+0
0.464, 1.340e-5, -4.873e+0
0.463, 1.320e-5, -4.879e+0
0.462, 1.310e-5, -4.883e+0
0.461, 1.300e-5, -4.886e+0
0.460, 1.280e-5, -4.893e+0
0.459, 1.270e-5, -4.896e+0
0.458, 1.260e-5, -4.900e+0
0.457, 1.250e-5, -4.903e+0
0.456, 1.230e-5, -4.910e+0
0.455, 1.220e-5, -4.914e+0
0.454, 1.210e-5, -4.917e+0
0.453, 1.200e-5, -4.921e+0
0.452, 1.190e-5, -4.924e+0
0.451, 1.170e-5, -4.932e+0
0.450, 1.160e-5, -4.936e+0
0.449, 1.150e-5, -4.939e+0
0.448, 1.140e-5, -4.943e+0
0.447, 1.130e-5, -4.947e+0
0.446, 1.120e-5, -4.951e+0
0.445, 1.110e-5, -4.955e+0
0.444, 1.100e-5, -4.959e+0
0.443, 1.090e-5, -4.963e+0
0.442, 1.080e-5, -4.967e+0
0.441, 1.070e-5, -4.971e+0
0.440, 1.060e-5, -4.975e+0
0.439, 1.050e-5, -4.979e+0
0.438, 1.030e-5, -4.987e+0
0.437, 1.020e-5, -4.991e+0
0.436, 1.020e-5, -4.991e+0
0.435, 1.010e-5, -4.996e+0
0.434, 9.960e-6, -5.002e+0
0.433, 9.860e-6, -5.006e+0
0.432, 9.770e-6, -5.010e+0
0.431, 9.670e-6, -5.015e+0
0.430, 9.580e-6, -5.019e+0
0.429, 9.490e-6, -5.023e+0
0.428, 9.400e-6, -5.027e+0
0.427, 9.320e-6, -5.031e+0
0.426, 9.220e-6, -5.035e+0
0.425, 9.130e-6, -5.040e+0
0.424, 9.040e-6, -5.044e+0
0.423, 8.950e-6, -5.048e+0
0.422, 8.870e-6, -5.052e+0
0.421, 8.790e-6, -5.056e+0
0.420, 8.710e-6, -5.060e+0
0.419, 8.620e-6, -5.064e+0
0.418, 8.540e-6, -5.069e+0
0.417, 8.460e-6, -5.073e+0
0.416, 8.390e-6, -5.076e+0
0.415, 8.310e-6, -5.080e+0
0.414, 8.230e-6, -5.085e+0
0.413, 8.140e-6, -5.089e+0
0.412, 8.060e-6, -5.094e+0
0.411, 7.990e-6, -5.097e+0
0.410, 7.920e-6, -5.101e+0
0.409, 7.850e-6, -5.105e+0
0.408, 7.770e-6, -5.110e+0
0.407, 7.690e-6, -5.114e+0
0.406, 7.620e-6, -5.118e+0
0.405, 7.540e-6, -5.123e

Note: parsers/parser_electrochem/data/TRans_2_150K.txt
Aug. 1, 2025   17:12:10
Amperometric i-t Curve
File: c:\users\19156\desktop\rawraw\5c\external source 2\trans_2_150k.txt
Data Source:  Experiment
Instrument Model:  CHI6273E
Data Proc:  Smoothing
Header: 
Note: 

Init E (V) = 0
Sample Interval (s) = 2.4
Run Time (sec) = 120
Quiet Time (sec) = 0
Sensitivity (A/V) = 1e-6

Results:

Channel 1:

Time/sec, Current/A

0.000e+0, -1.694e-11
2.400e+0, -1.634e-11
4.800e+0, -1.596e-11
7.200e+0, -1.579e-11
9.600e+0, -1.593e-11
1.200e+1, -1.617e-11
1.440e+1, -1.638e-11
1.680e+1, -1.652e-11
1.920e+1, -1.660e-11
2.160e+1, -1.668e-11
2.400e+1, -1.679e-11
2.640e+1, -1.679e-11
2.880e+1, -1.668e-11
3.120e+1, -1.651e-11
3.360e+1, -1.632e-11
3.600e+1, -1.611e-11
3.840e+1, -1.587e-11
4.080e+1, -1.547e-11
4.320e+1, -1.492e-11
4.560e+1, -1.436e-11
4.800e+1, -1.396e-11
5.040e+1, -1.379e-11
5.280e+1, -1.387e-11
5.520e+1, -1.412e-11
5.760e+1, -1.443e-11
6.000e+1, -1.486e-11
6.240e+1, -1.542e-11
6.480e+1, -1.606e-11
6.720e+1, -1.678e-11
6.960e+1, -1.757e-11
7.200e+1, -1.846e-11
7.440e+1, -1.959e-11
7.680e+1, -2.102e-11
7.920e+1, -2.273e-11
8.160e+1, -2.476e-11
8.400e+1, -2.714e-11
8.640e+1, -2.996e-11
8.880e+1, -3.345e-11
9.120e+1, -3.788e-11
9.360e+1, -4.355e-11
9.600e+1, -5.067e-11
9.840e+1, -5.938e-11
1.008e+2, -6.987e-11
1.032e+2, -8.231e-11
1.056e+2, -9.984e-11
1.080e+2, -1.195e-10
1.104e+2, -1.424e-10
1.128e+2, -1.697e-10
1.152e+2, -2.040e-10
1.176e+2, -2.439e-10
1.200e+2, -2.895e-10

File: ORR_Pt-C_1600rpm_RDE.txt
Sept. 22, 2024   14:12:14
Linear Sweep Voltammetry
File: c:\users\19156\desktop\rawraw\orr_all\orr_pt_c_16000 rpm_rde.txt
Data Source:  Experiment
Instrument Model:  CHI440B
Header:
Note:

Init E (V) = 0.2
Final E (V) = -1
Scan Rate (V/s) = 0.005
Sample Interval (V) = 0.001
Quiet Time (sec) = 2
Sensitivity (A/V) = 1e-5

Results:

Channel 1:

Potential/V, Current/A

0.220, 9.540e-7
0.170, 9.540e-7
0.120, 9.540e-7
0.070, 9.540e-7
0.068, 9.540e-7
0.066, 7.040e-7
0.064, 2.120e-7
0.062, -1.640e-7
0.060, -5.130e-7
0.058, -1.070e-6
0.056, -1.420e-6
0.054, -1.880e-6
0.052, -2.480e-6
0.050, -2.960e-6
0.048, -3.530e-6
0.046, -4.000e-6
0.044, -4.500e-6
0.042, -5.300e-6
0.040, -5.830e-6
0.038, -6.560e-6
0.036, -7.410e-6
0.034, -8.030e-6
0.032, -8.880e-6
0.030, -9.700e-6
0.028, -1.060e-5
0.026, -1.160e-5
0.024, -1.260e-5
0.022, -1.360e-5
0.020, -1.490e-5
0.018, -1.580e-5
0.016, -1.710e-5
0.014, -1.840e-5
0.012, -1.970e-5
0.010, -2.120e-5
0.008, -2.260e-5
0.006, -2.420e-5
0.004, -2.590e-5
0.002, -2.750e-5
0.000, -2.940e-5
-0.002, -3.140e-5
-0.004, -3.330e-5
-0.006, -3.560e-5
-0.008, -3.760e-5
-0.010, -4.000e-5
-0.012, -4.250e-5
-0.014, -4.500e-5
-0.016, -4.780e-5
-0.018, -5.050e-5
-0.020, -5.340e-5
-0.022, -5.660e-5
-0.024, -5.970e-5
-0.026, -6.310e-5
-0.028, -6.670e-5
-0.030, -7.020e-5
-0.032, -7.410e-5
-0.034, -7.790e-5
-0.036, -8.190e-5
-0.038, -8.630e-5
-0.040, -9.050e-5
-0.042, -9.510e-5
-0.044, -9.990e-5
-0.046, -1.050e-4
-0.048, -1.100e-4
-0.050, -1.150e-4
-0.052, -1.200e-4
-0.054, -1.250e-4
-0.056, -1.310e-4
-0.058, -1.370e-4
-0.060, -1.420e-4
-0.062, -1.480e-4
-0.064, -1.540e-4
-0.066, -1.600e-4
-0.068, -1.660e-4
-0.070, -1.720e-4
-0.072, -1.780e-4
-0.074, -1.850e-4
-0.076, -1.910e-4
-0.078, -1.970e-4
-0.080, -2.030e-4
-0.082, -2.090e-4
-0.084, -2.150e-4
-0.086, -2.210e-4
-0.088, -2.270e-4
-0.090, -2.330e-4
-0.092, -2.390e-4
-0.094, -2.440e-4
-0.096, -2.500e-4
-0.098, -2.550e-4
-0.100, -2.600e-4
-0.102, -2.650e-4
-0.104, -2.700e-4
-0.106, -2.750e-4
-0.108, -2.790e-4
-0.110, -2.830e-4
-0.112, -2.870e-4
-0.114, -2.910e-4
-0.116, -2.950e-4
-0.118, -2.990e-4
-0.120, -3.020e-4
-0.122, -3.060e-4
-0.124, -3.090e-4
-0.126, -3.120e-4
-0.128, -3.150e-4
-0.130, -3.180e-4
-0.132, -3.210e-4
-0.134, -3.240e-4
-0.136, -3.260e-4
-0.138, -3.280e-4
-0.140, -3.310e-4
-0.142, -3.330e-4
-0.144, -3.360e-4
-0.146, -3.380e-4
-0.148, -3.410e-4
-0.150, -3.430e-4
-0.152, -3.450e-4
-0.154, -3.470e-4
-0.156, -3.490e-4
-0.158, -3.510e-4
-0.160, -3.520e-4
-0.162, -3.540e-4
-0.164, -3.560e-4
-0.166, -3.580e-4
-0.168, -3.580e-4
-0.170, -3.600e-4
-0.172, -3.620e-4
-0.174, -3.630e-4
-0.176, -3.640e-4
-0.178, -3.660e-4
-0.180, -3.670e-4
-0.182, -3.680e-4
-0.184, -3.700e-4
-0.186, -3.710e-4
-0.188, -3.720e-4
-0.190, -3.730e-4
-0.192, -3.740e-4
-0.194, -3.760e-4
-0.196, -3.760e-4
-0.198, -3.770e-4
-0.200, -3.780e-4
-0.202, -3.790e-4
-0.204, -3.800e-4
-0.206, -3.810e-4
-0.208, -3.810e-4
-0.210, -3.820e-4
-0.212, -3.830e-4
-0.214, -3.840e-4
-0.216, -3.850e-4
-0.218, -3.850e-4
-0.220, -3.850e-4
-0.222, -3.860e-4
-0.224, -3.870e-4
-0.226, -3.870e-4
-0.228, -3.880e-4
-0.230, -3.890e-4
-0.232, -3.890e-4
-0.234, -3.900e-4
-0.236, -3.900e-4
-0.238, -3.900e-4
-0.240, -3.910e-4
-0.242, -3.910e-4
-0.244, -3.910e-4
-0.246, -3.920e-4
-0.248, -3.920e-4
-0.250, -3.920e-4
-0.252, -3.930e-4
-0.254, -3.930e-4
-0.256, -3.930e-4
-0.258, -3.930e-4
-0.260, -3.940e-4
-0.262, -3.940e-4
-0.264, -3.940e-4
-0.266, -3.940e-4
-0.268, -3.940e-4
-0.270, -3.940e-4
-0.272, -3.940e-4
-0.274, -3.940e-4
-0.276, -3.940e-4
-0.278, -3.950e-4
-0.280, -3.950e-4
-0.282, -3.950e-4
-0.284, -3.950e-4
-0.286, -3.940e-4
-0.288, -3.940e-4
-0.290, -3.940e-4
-1.000, -3.940e-4